<Bundle xmlns="http://hl7.org/fhir">
	<meta>
		<profile value="https://gematik.de/fhir/StructureDefinition/ErxReceipt" />
		<tag>
			<display value="Valid example reciept with minimal data, all references bundled." />
		</tag>
	</meta>
	<identifier>
		<system value="https://gematik.de/fhir/NamingSystem/PrescriptionID" />
		<value value="160.123.456.789.123.58" />
	</identifier>
	<type value="document" />
	<timestamp value="2020-03-20T07:31:34.328+00:00" />
	<entry>
		<fullUrl value="https://prescriptionserver.telematik/Composition/example" />
		<resource>
			<Composition>
				<meta>
					<profile value="https://gematik.de/fhir/StructureDefinition/ERxComposition2" />
				</meta>
				<status value="final" />
				<type>
					<coding>
						<system value="https://gematik.de/fhir/CodeSystem/Documenttype" />
						<code value="3" />
					</coding>
				</type>
				<date value="2020-03-20T07:31:34.328+00:00" />
				<author>
					<reference value="https://prescriptionserver.telematik/Device/eRxService" />
				</author>
				<title value="Quittung" />
				<event>
					<period>
						<start value="2020-03-20T07:23:34.328+00:00" />
					</period>
					<detail>
						<reference value="https://prescriptionserver.telematik/MedicationDispense/example" />
					</detail>
				</event>
			</Composition>
		</resource>
	</entry>
	<entry>
		<fullUrl value="https://prescriptionserver.telematik/Device/eRxService" />
		<resource>
			<Device>
				<id value="eRxService" />
				<status value="active" />
				<serialNumber value="R4.0.0.287342834" />
			</Device>
		</resource>
	</entry>
	<entry>
		<fullUrl value="https://prescriptionserver.telematik/MedicationDispense/example" />
		<resource>
			<MedicationDispense>
				<meta>
					<profile value="https://gematik.de/fhir/StructureDefinition/ERxMedicationDispense" />
				</meta>
				<identifier>
					<system value="https://gematik.de/fhir/NamingSystem/PrescriptionID" />
					<value value="12345678" />
				</identifier>
				<status value="completed" />
				<medicationReference>
					<reference value="https://prescriptionserver.telematik/Medication/example" />
					<display value="Sumatriptan-1a Pharma 100 mg Tabletten" />
				</medicationReference>
				<subject>
					<identifier>
						<system value="http://fhir.de/NamingSystem/gkv/kvid-10" />
						<value value="X234567890" />
					</identifier>
				</subject>
				<performer>
					<actor>
						<identifier>
							<system value="https://gematik.de/fhir/Namingsystem/TelematikID" />
							<value value="606358757" />
						</identifier>
					</actor>
				</performer>
				<whenHandedOver value="2020-03-20T07:13:00+05:00" />
				<dosageInstruction>
					<text value="1-0-1-0" />
				</dosageInstruction>
			</MedicationDispense>
		</resource>
	</entry>
	<entry>
		<fullUrl value="https://prescriptionserver.telematik/Medication/example" />
		<resource>
			<Medication>
				<extension url="https://fhir.kbv.de/StructureDefinition/KBV_EX_ERP_MEDIKAMENT_KATEGORIE">
					<valueCoding>
						<system value="https://fhir.kbv.de/CodeSystem/KBV_CS_ERP_MEDIKAMENT_KATEGORIE" />
						<code value="00" />
					</valueCoding>
				</extension>
				<extension url="https://fhir.kbv.de/StructureDefinition/KBV_EX_ERP_MEDIKAMENT_IMPFSTOFF">
					<valueBoolean value="false" />
				</extension>
				<extension url="http://fhir.de/StructureDefinition/normgroesse">
					<valueCode value="N1" />
				</extension>
				<code>
					<coding>
						<system value="http://fhir.de/CodeSystem/ifa/pzn" />
						<code value="06313728" />
					</coding>
					<text value="Sumatriptan-1a Pharma 100 mg Tabletten" />
				</code>
				<form>
					<coding>
						<system value="https://fhir.kbv.de/CodeSystem/KBV_CS_SFHIR_KBV_DARREICHUNGSFORM" />
						<code value="TAB" />
					</coding>
				</form>
				<amount>
					<numerator>
						<value value="12" />
						<unit value="TAB" />
						<system value="http://unitsofmeasure.org" />
						<code value="{tbl}" />
					</numerator>
					<denominator>
						<value value="1" />
					</denominator>
				</amount>
			</Medication>
		</resource>
	</entry>
	<signature>
		<type>
			<system value="http://hl7.org/fhir/ValueSet/signature-type" />
			<code value="1.2.840.10065.1.12.1.5" />
		</type>
		<when value="2020-03-20T07:31:34.328+00:00" />
		<who>
			<reference value="https://prescriptionserver.telematik/Device/eRxService" />
		</who>
		<data value="MIII FQYJ KoZI hvcN AQcC oIII BjCC CAIC AQEx DzAN Bglg hkgB ZQME AgEF ADAL" />
	</signature>
</Bundle>